#Signal Time:    09-11-2001 00:02:16
#RF Frequency:   32.700 MHz +/- 400 kHz
#Magnetic Field: 5.003 T
#Num Sweeps:     200
#Num Points:     500
#Polarization:   47.1 %
#Polyfit Coeffs: 1.7104e-03 2.7959e-07 -3.2658e-08 3.3606e-11 
32.300000 1.046278e-04
32.301600 9.354717e-05
32.303200 1.395225e-04
32.304800 1.006323e-04
32.306400 1.154054e-04
32.308000 1.087543e-04
32.309600 8.297455e-05
32.311200 1.019851e-04
32.312800 6.979266e-05
32.314400 7.982806e-05
32.316000 6.833806e-05
32.317600 7.705978e-05
32.319200 6.069289e-05
32.320800 8.514053e-05
32.322400 6.579255e-05
32.324000 4.359338e-05
32.325600 6.042574e-05
32.327200 3.153236e-05
32.328800 2.603960e-05
32.330400 1.781775e-05
32.332000 1.644733e-05
32.333600 1.931029e-05
32.335200 1.350887e-05
32.336800 4.540782e-05
32.338400 2.789401e-05
32.340000 2.022764e-05
32.341600 1.389766e-05
32.343200 -1.408380e-05
32.344800 -5.226373e-06
32.346400 3.220056e-05
32.348000 1.124431e-05
32.349600 8.746200e-06
32.351200 -1.449810e-05
32.352800 -1.204533e-06
32.354400 -3.860498e-05
32.356000 -7.992482e-07
32.357600 4.702617e-06
32.359200 6.524844e-06
32.360800 -4.381449e-05
32.362400 -1.056886e-05
32.364000 -2.420782e-05
32.365600 -3.442061e-05
32.367200 -1.918960e-05
32.368800 -4.828532e-05
32.370400 -3.788066e-05
32.372000 -6.301309e-05
32.373600 -5.320410e-05
32.375200 -5.251040e-05
32.376800 -2.847212e-05
32.378400 -5.476003e-05
32.380000 -4.864079e-05
32.381600 -2.148189e-05
32.383200 -4.450393e-05
32.384800 -7.366729e-05
32.386400 -9.122126e-05
32.388000 -4.816343e-05
32.389600 -6.746717e-05
32.391200 -4.976910e-05
32.392800 -5.033068e-05
32.394400 -3.646287e-05
32.396000 -5.782267e-05
32.397600 -7.117050e-05
32.399200 -3.958378e-05
32.400800 -2.629938e-05
32.402400 -7.002787e-05
32.404000 -6.299295e-05
32.405600 -7.183999e-05
32.407200 -2.230277e-05
32.408800 -5.633066e-05
32.410400 -9.841154e-05
32.412000 -5.761581e-05
32.413600 -7.901383e-05
32.415200 -7.022176e-05
32.416800 -1.001309e-04
32.418400 -7.971185e-05
32.420000 -5.527134e-05
32.421600 -5.521525e-05
32.423200 -6.445967e-05
32.424800 -3.796491e-05
32.426400 -9.688340e-05
32.428000 -6.039748e-05
32.429600 -6.825638e-05
32.431200 -7.394951e-05
32.432800 -5.660932e-05
32.434400 -4.850437e-05
32.436000 -7.066097e-05
32.437600 -1.569866e-05
32.439200 -4.257603e-05
32.440800 -4.137915e-05
32.442400 -1.765017e-05
32.444000 -1.719172e-05
32.445600 -1.216920e-05
32.447200 -2.593403e-05
32.448800 -6.505344e-05
32.450400 -2.615550e-05
32.452000 -2.150468e-05
32.453600 -2.356638e-05
32.455200 -5.231050e-06
32.456800 -2.308521e-05
32.458400 -1.550080e-05
32.460000 -1.117122e-05
32.461600 -3.218948e-05
32.463200 -3.183435e-07
32.464800 8.112973e-06
32.466400 -2.479668e-05
32.468000 1.767533e-05
32.469600 1.852261e-05
32.471200 -4.455453e-07
32.472800 4.149159e-05
32.474400 3.351129e-05
32.476000 9.538634e-05
32.477600 1.026600e-04
32.479200 7.540808e-05
32.480800 9.463469e-05
32.482400 6.148439e-05
32.484000 6.181986e-05
32.485600 7.982339e-05
32.487200 6.721723e-05
32.488800 1.261816e-04
32.490400 1.507939e-04
32.492000 1.541965e-04
32.493600 1.784997e-04
32.495200 1.421655e-04
32.496800 2.011688e-04
32.498400 1.772748e-04
32.500000 2.371423e-04
32.501600 2.397219e-04
32.503200 2.507834e-04
32.504800 2.511008e-04
32.506400 2.402155e-04
32.508000 3.082152e-04
32.509600 2.427720e-04
32.511200 1.457078e-04
32.512800 1.359285e-04
32.514400 2.053210e-05
32.516000 -9.475931e-05
32.517600 -2.574401e-04
32.519200 -4.242833e-04
32.520800 -6.367244e-04
32.522400 -9.669094e-04
32.524000 -1.318975e-03
32.525600 -1.876931e-03
32.527200 -2.568182e-03
32.528800 -3.397087e-03
32.530400 -4.361971e-03
32.532000 -5.510586e-03
32.533600 -6.935114e-03
32.535200 -8.378573e-03
32.536800 -9.967896e-03
32.538400 -1.147080e-02
32.540000 -1.275513e-02
32.541600 -1.363577e-02
32.543200 -1.413863e-02
32.544800 -1.446395e-02
32.546400 -1.462234e-02
32.548000 -1.447926e-02
32.549600 -1.421618e-02
32.551200 -1.425188e-02
32.552800 -1.450981e-02
32.554400 -1.496484e-02
32.556000 -1.532929e-02
32.557600 -1.557016e-02
32.559200 -1.576090e-02
32.560800 -1.588421e-02
32.562400 -1.597617e-02
32.564000 -1.604293e-02
32.565600 -1.612956e-02
32.567200 -1.615967e-02
32.568800 -1.605229e-02
32.570400 -1.619632e-02
32.572000 -1.652690e-02
32.573600 -1.666203e-02
32.575200 -1.649704e-02
32.576800 -1.640874e-02
32.578400 -1.675194e-02
32.580000 -1.718370e-02
32.581600 -1.736633e-02
32.583200 -1.727142e-02
32.584800 -1.756999e-02
32.586400 -1.832479e-02
32.588000 -1.912798e-02
32.589600 -1.938294e-02
32.591200 -1.977502e-02
32.592800 -2.082453e-02
32.594400 -2.225198e-02
32.596000 -2.368992e-02
32.597600 -2.502649e-02
32.599200 -2.641666e-02
32.600800 -2.812413e-02
32.602400 -3.031686e-02
32.604000 -3.245899e-02
32.605600 -3.460843e-02
32.607200 -3.697472e-02
32.608800 -3.935632e-02
32.610400 -4.160467e-02
32.612000 -4.361078e-02
32.613600 -4.540025e-02
32.615200 -4.677421e-02
32.616800 -4.811419e-02
32.618400 -4.948403e-02
32.620000 -5.076162e-02
32.621600 -5.168308e-02
32.623200 -5.245225e-02
32.624800 -5.333076e-02
32.626400 -5.405631e-02
32.628000 -5.406238e-02
32.629600 -5.307746e-02
32.631200 -5.176483e-02
32.632800 -5.053870e-02
32.634400 -4.941109e-02
32.636000 -4.795232e-02
32.637600 -4.658766e-02
32.639200 -4.542989e-02
32.640800 -4.456895e-02
32.642400 -4.415072e-02
32.644000 -4.385981e-02
32.645600 -4.352868e-02
32.647200 -4.315282e-02
32.648800 -4.285190e-02
32.650400 -4.239893e-02
32.652000 -4.204036e-02
32.653600 -4.167768e-02
32.655200 -4.165294e-02
32.656800 -4.194324e-02
32.658400 -4.196387e-02
32.660000 -4.176196e-02
32.661600 -4.188394e-02
32.663200 -4.245210e-02
32.664800 -4.267388e-02
32.666400 -4.243124e-02
32.668000 -4.178813e-02
32.669600 -4.151282e-02
32.671200 -4.181116e-02
32.672800 -4.213895e-02
32.674400 -4.216531e-02
32.676000 -4.178565e-02
32.677600 -4.160326e-02
32.679200 -4.230081e-02
32.680800 -4.305908e-02
32.682400 -4.283096e-02
32.684000 -4.240685e-02
32.685600 -4.212886e-02
32.687200 -4.236790e-02
32.688800 -4.259467e-02
32.690400 -4.224929e-02
32.692000 -4.185201e-02
32.693600 -4.160161e-02
32.695200 -4.141598e-02
32.696800 -4.184176e-02
32.698400 -4.224378e-02
32.700000 -4.215366e-02
32.701600 -4.255111e-02
32.703200 -4.364143e-02
32.704800 -4.448665e-02
32.706400 -4.498445e-02
32.708000 -4.520668e-02
32.709600 -4.539801e-02
32.711200 -4.560757e-02
32.712800 -4.541159e-02
32.714400 -4.543249e-02
32.716000 -4.637410e-02
32.717600 -4.716239e-02
32.719200 -4.747004e-02
32.720800 -4.812849e-02
32.722400 -4.905551e-02
32.724000 -4.962102e-02
32.725600 -5.001674e-02
32.727200 -5.060027e-02
32.728800 -5.135588e-02
32.730400 -5.172105e-02
32.732000 -5.240918e-02
32.733600 -5.346866e-02
32.735200 -5.471063e-02
32.736800 -5.552719e-02
32.738400 -5.564819e-02
32.740000 -5.612045e-02
32.741600 -5.728289e-02
32.743200 -5.844691e-02
32.744800 -5.921375e-02
32.746400 -6.013607e-02
32.748000 -6.139704e-02
32.749600 -6.302134e-02
32.751200 -6.536586e-02
32.752800 -6.751143e-02
32.754400 -6.963054e-02
32.756000 -7.259857e-02
32.757600 -7.591692e-02
32.759200 -7.895634e-02
32.760800 -8.082376e-02
32.762400 -8.252658e-02
32.764000 -8.475616e-02
32.765600 -8.659257e-02
32.767200 -8.675788e-02
32.768800 -8.620961e-02
32.770400 -8.569103e-02
32.772000 -8.424685e-02
32.773600 -8.103257e-02
32.775200 -7.642614e-02
32.776800 -7.208952e-02
32.778400 -6.823459e-02
32.780000 -6.281034e-02
32.781600 -5.615993e-02
32.783200 -5.065876e-02
32.784800 -4.585395e-02
32.786400 -4.132161e-02
32.788000 -3.670587e-02
32.789600 -3.122734e-02
32.791200 -2.618353e-02
32.792800 -2.228464e-02
32.794400 -1.907087e-02
32.796000 -1.620172e-02
32.797600 -1.364754e-02
32.799200 -1.144503e-02
32.800800 -1.024719e-02
32.802400 -9.782989e-03
32.804000 -9.424397e-03
32.805600 -9.119706e-03
32.807200 -8.895092e-03
32.808800 -8.674852e-03
32.810400 -8.397450e-03
32.812000 -8.249895e-03
32.813600 -8.246763e-03
32.815200 -8.335011e-03
32.816800 -8.160953e-03
32.818400 -7.993612e-03
32.820000 -7.894716e-03
32.821600 -7.933411e-03
32.823200 -7.827374e-03
32.824800 -7.664284e-03
32.826400 -7.611584e-03
32.828000 -7.738086e-03
32.829600 -7.996922e-03
32.831200 -8.230241e-03
32.832800 -8.393100e-03
32.834400 -8.360550e-03
32.836000 -8.226221e-03
32.837600 -8.073761e-03
32.839200 -7.904644e-03
32.840800 -7.629716e-03
32.842400 -7.359382e-03
32.844000 -7.129979e-03
32.845600 -7.088838e-03
32.847200 -6.990215e-03
32.848800 -6.818192e-03
32.850400 -6.551117e-03
32.852000 -6.117496e-03
32.853600 -5.670679e-03
32.855200 -5.136611e-03
32.856800 -4.563179e-03
32.858400 -3.967510e-03
32.860000 -3.406055e-03
32.861600 -2.919993e-03
32.863200 -2.503632e-03
32.864800 -1.957520e-03
32.866400 -1.532336e-03
32.868000 -1.122927e-03
32.869600 -7.846518e-04
32.871200 -4.570173e-04
32.872800 -2.144023e-04
32.874400 -9.147551e-05
32.876000 -7.571143e-05
32.877600 -3.657005e-05
32.879200 -7.511678e-06
32.880800 2.310577e-05
32.882400 3.055579e-05
32.884000 4.904315e-06
32.885600 3.706428e-05
32.887200 1.854642e-05
32.888800 1.210385e-05
32.890400 2.802024e-05
32.892000 3.900229e-05
32.893600 4.920001e-05
32.895200 -6.948595e-06
32.896800 3.028970e-05
32.898400 2.021561e-05
32.900000 5.422844e-06
32.901600 6.395613e-06
32.903200 9.924686e-06
32.904800 3.609208e-06
32.906400 -4.183915e-06
32.908000 -2.540551e-05
32.909600 -7.711366e-06
32.911200 -6.346251e-06
32.912800 -6.467921e-06
32.914400 1.807480e-05
32.916000 -4.663747e-06
32.917600 -3.562337e-05
32.919200 -4.915293e-05
32.920800 7.441833e-06
32.922400 -1.008023e-05
32.924000 2.455401e-05
32.925600 -1.380393e-05
32.927200 -1.363169e-05
32.928800 -2.366537e-05
32.930400 -1.681209e-05
32.932000 -9.256232e-06
32.933600 -1.703218e-05
32.935200 -6.988379e-06
32.936800 -1.786875e-05
32.938400 1.653834e-05
32.940000 -7.297784e-06
32.941600 -1.492339e-05
32.943200 -1.378906e-05
32.944800 7.552253e-07
32.946400 2.132880e-06
32.948000 5.902851e-06
32.949600 -7.336086e-06
32.951200 3.451839e-08
32.952800 4.204873e-06
32.954400 -1.475575e-06
32.956000 -5.320893e-05
32.957600 4.371117e-06
32.959200 -1.775392e-05
32.960800 1.138099e-05
32.962400 -3.158086e-05
32.964000 3.951601e-06
32.965600 -1.411212e-05
32.967200 1.898329e-05
32.968800 2.884205e-05
32.970400 4.013341e-06
32.972000 -4.725350e-06
32.973600 5.917614e-06
32.975200 4.407032e-06
32.976800 3.962862e-05
32.978400 -1.063261e-05
32.980000 2.196535e-05
32.981600 -3.158661e-05
32.983200 -4.713441e-07
32.984800 2.317275e-05
32.986400 2.560186e-06
32.988000 2.912893e-05
32.989600 -1.160226e-05
32.991200 -5.689691e-07
32.992800 -3.009711e-05
32.994400 -1.927428e-05
32.996000 -1.099460e-05
32.997600 -1.558094e-06
32.999200 1.373113e-05
33.000800 1.338840e-05
33.002400 -9.127450e-05
33.004000 -1.058142e-04
33.005600 2.939731e-05
33.007200 -1.963703e-05
33.008800 7.990433e-05
33.010400 -3.763142e-05
33.012000 -1.336307e-05
33.013600 2.659836e-05
33.015200 -2.476130e-05
33.016800 -2.756405e-05
33.018400 3.271568e-05
33.020000 -2.011910e-05
33.021600 -7.970882e-05
33.023200 1.415893e-05
33.024800 5.183956e-05
33.026400 -3.961680e-05
33.028000 -7.959251e-05
33.029600 1.485412e-05
33.031200 -1.302553e-06
33.032800 -2.479060e-05
33.034400 -5.065908e-06
33.036000 1.819008e-05
33.037600 4.653973e-05
33.039200 3.526799e-05
33.040800 7.684221e-06
33.042400 1.982451e-05
33.044000 -1.986618e-05
33.045600 5.078301e-05
33.047200 -1.369315e-05
33.048800 8.979357e-06
33.050400 3.263329e-05
33.052000 -6.397424e-06
33.053600 -3.428285e-06
33.055200 1.898306e-05
33.056800 3.210457e-06
33.058400 -1.408187e-05
33.060000 -2.667514e-06
33.061600 6.301668e-06
33.063200 -1.768238e-05
33.064800 2.067683e-05
33.066400 -2.825379e-05
33.068000 -5.003538e-06
33.069600 2.096643e-05
33.071200 1.460303e-05
33.072800 -1.580254e-06
33.074400 2.397221e-05
33.076000 4.499425e-05
33.077600 7.493741e-05
33.079200 4.259259e-06
33.080800 9.305866e-06
33.082400 -2.687705e-05
33.084000 1.430093e-05
33.085600 3.231375e-05
33.087200 -2.999625e-05
33.088800 4.724873e-05
33.090400 -6.461208e-06
33.092000 -1.329647e-05
33.093600 -3.978352e-05
33.095200 -3.164510e-05
33.096800 -2.352778e-05
33.098400 -2.816810e-05

